File: tutorials/data/CP_SSB.txt
EC-Lab ASCII FILE
Nb header lines : 62

Chronopotentiometry

Run on channel : 8 (SN 12288)
User :
Electrode connection : standard
Potential control : Ewe
Ewe ctrl range : min = 0.00 V, max = 5.00 V
Ewe,I filtering : 50 kHz
Safety Limits :
	Do not start on E overload
Channel : Grounded
Acquisition started on : 05/17/2024 14:09:11.952
Loaded Setting File :  NONE
Saved on :
	File : HybridGEIS_0.005C_03_CP_C08.mpr
	Directory : C:\Users\akzmess010\Documents\EC-Lab\Data\JakeHuang\240506_PC05_NCM-LPSCl_baseline\hybrid\
	Host : 192.109.209.2
Device : VMP-300 (SN 0451)
Address : 192.109.209.30
EC-LAB for windows v11.50 (software)
Internet server v11.50 (firmware)
Command interpretor v11.50 (firmware)
Electrode material :
Initial state :
Electrolyte :
Comments :
Mass of active material : 7.826 mg
 at x = 0.000
Molecular weight of active material (at x = 0) : 28.000 g/mol
Atomic weight of intercalated ion : 7.000 g/mol
Acquisition started at : xo = 0.000
Number of e- transfered per intercalated ion : 1
for DX = 1, DQ = 7.491 mA.h
Battery capacity : 1.680 mA.h
Cable : special
Reference electrode : SCE Saturated Calomel Electrode (0.241 V)
Electrode surface area : 0.001 cm²
Characteristic mass : 7.826 mg
Volume (V) : 0.001 cm³
Cycle Definition : Charge/Discharge alternance
Ns                  0                   1                   2                   3                   4                   5                   6                   7
Is                  0.000               8.400               -8.400              8.400               -8.400              8.400               -8.400              0.000
unit Is             mA                  µA                  µA                  µA                  µA                  µA                  µA                  µA
vs.                 <None>              <None>              <None>              <None>              <None>              <None>              <None>              <None>
ts (h:m:s)          0:00:3.0000         0:00:0.1000         0:00:0.1000         0:00:1.0000         0:00:1.0000         0:00:10.0000        0:00:10.0000        0:00:5.0000
EM (V)              pass                4.500               0.200               4.500               0.200               4.500               0.200               pass
dQM                 0.000               233.333             233.333             2.333               2.333               23.333              23.333              0.000
unit dQM            mA.h                pA.h                pA.h                nA.h                nA.h                nA.h                nA.h                mA.h
record              Ewe                 Ewe                 Ewe                 Ewe                 Ewe                 Ewe                 Ewe                 Ewe
dEs (mV)            0.00                0.00                0.00                0.00                0.00                0.00                0.00                0.00
dts (s)             0.0010              0.0010              0.0010              0.0010              0.0010              0.0010              0.0010              0.0010
E range min (V)     0.000               0.000               0.000               0.000               0.000               0.000               0.000               0.000
E range max (V)     5.000               5.000               5.000               5.000               5.000               5.000               5.000               5.000
I Range             100 µA              100 µA              100 µA              100 µA              100 µA              100 µA              100 µA              100 µA
Bandwidth           8                   8                   8                   8                   8                   8                   8                   8
goto Ns'            0                   0                   0                   0                   0                   0                   0                   0
nc cycles           0                   0                   0                   0                   0                   0                   0                   0

time/s	Ewe/V	I/mA	I Range		step time/s	Ns
19.8948	2.92315	-1.93068e-05	41	0	0.000000000000000E+000	0
19.9198	2.92366	-2.12157e-05	41	0	19.9198	0
19.9448	2.92361	-2.0834e-05	41	0	19.9448	0
19.9698	2.92359	-1.8925e-05	41	0	19.9698	0
19.9948	2.92361	-1.83741e-05	41	0	19.9948	0
20.0198	2.9236	-1.92522e-05	41	0	20.0198	0
20.0448	2.92363	-1.89849e-05	41	0	20.0448	0
20.0698	2.92363	-1.8145e-05	41	0	20.0698	0
20.0948	2.92359	-1.93843e-05	41	0	20.0948	0
20.1198	2.92359	-1.87677e-05	41	0	20.1198	0
20.1448	2.92356	-1.98253e-05	41	0	20.1448	0
20.1698	2.92357	-1.93251e-05	41	0	20.1698	0
20.1948	2.92358	-1.95924e-05	41	0	20.1948	0
20.2198	2.92363	-1.82256e-05	41	0	20.2198	0
20.2448	2.92359	-1.90617e-05	41	0	20.2448	0
20.2698	2.92355	-1.87487e-05	41	0	20.2698	0
20.2948	2.9236	-1.85845e-05	41	0	20.2948	0
20.3198	2.92357	-1.88823e-05	41	0	20.3198	0
20.3448	2.92354	-1.763e-05	41	0	20.3448	0
20.3698	2.92359	-1.78973e-05	41	0	20.3698	0
20.3948	2.9236	-1.96077e-05	41	0	20.3948	0
20.4198	2.92355	-1.90426e-05	41	0	20.4198	0
20.4448	2.92363	-1.92755e-05	41	0	20.4448	0
20.4698	2.9236	-2.01345e-05	41	0	20.4698	0
20.4948	2.92362	-1.92755e-05	41	0	20.4948	0
20.5198	2.92359	-1.8951e-05	41	0	20.5198	0
20.5448	2.9236	-1.96e-05	41	0	20.5448	0
20.5698	2.92357	-2.07797e-05	41	0	20.5698	0
20.5948	2.92357	-1.91763e-05	41	0	20.5948	0
20.6198	2.92356	-1.89892e-05	41	0	20.6198	0
20.6448	2.92357	-1.9203e-05	41	0	20.6448	0
20.6698	2.92357	-1.89243e-05	41	0	20.6698	0
20.6948	2.92357	-1.95771e-05	41	0	20.6948	0
20.7198	2.92363	-1.89395e-05	41	0	20.7198	0
20.7448	2.92359	-1.86494e-05	41	0	20.7448	0
20.7698	2.92362	-1.87448e-05	41	0	20.7698	0
20.7948	2.9236	-1.88059e-05	41	0	20.7948	0
20.8198	2.92359	-1.92373e-05	41	0	20.8198	0
20.8448	2.92358	-1.93939e-05	41	0	20.8448	0
20.8698	2.92361	-1.88708e-05	41	0	20.8698	0
20.8948	2.92355	-1.9077e-05	41	0	20.8948	0
20.9198	2.92354	-1.85501e-05	41	0	20.9198	0
20.9448	2.92359	-1.88556e-05	41	0	20.9448	0
20.9698	2.92356	-1.94091e-05	41	0	20.9698	0
20.9948	2.92355	-1.85043e-05	41	0	20.9948	0
21.0198	2.9236	-1.90235e-05	41	0	21.0198	0
21.0448	2.92362	-1.81378e-05	41	0	21.0448	0
21.0698	2.92357	-1.88326e-05	41	0	21.0698	0
21.0948	2.9236	-1.76377e-05	41	0	21.0948	0
21.1198	2.92358	-1.87067e-05	41	0	21.1198	0
21.1448	2.92362	-1.91992e-05	41	0	21.1448	0
21.1698	2.92356	-1.91114e-05	41	0	21.1698	0
21.1948	2.92358	-1.88823e-05	41	0	21.1948	0
21.2198	2.9236	-1.83325e-05	41	0	21.2198	0
21.2448	2.9236	-1.72368e-05	41	0	21.2448	0
21.2698	2.92359	-1.80653e-05	41	0	21.2698	0
21.2948	2.9236	-1.80576e-05	41	0	21.2948	0
21.3198	2.92362	-1.83783e-05	41	0	21.3198	0
21.3448	2.92357	-1.86227e-05	41	0	21.3448	0
21.3698	2.92359	-1.92335e-05	41	0	21.3698	0
21.3948	2.92359	-1.86227e-05	41	0	21.3948	0
21.4198	2.92359	-1.87754e-05	41	0	21.4198	0
21.4448	2.9236	-1.86265e-05	41	0	21.4448	0
21.4698	2.92355	-1.9077e-05	41	0	21.4698	0
21.4948	2.92361	-1.83783e-05	41	0	21.4948	0
21.5198	2.9236	-1.77064e-05	41	0	21.5198	0
21.5448	2.92359	-1.84776e-05	41	0	21.5448	0
21.5698	2.92359	-1.78629e-05	41	0	21.5698	0
21.5948	2.92357	-1.84776e-05	41	0	21.5948	0
21.6198	2.92363	-1.85463e-05	41	0	21.6198	0
21.6448	2.92358	-1.81073e-05	41	0	21.6448	0
21.6698	2.92353	-1.77026e-05	41	0	21.6698	0
21.6948	2.9236	-1.79698e-05	41	0	21.6948	0
21.7198	2.92356	-1.8302e-05	41	0	21.7198	0
21.7448	2.92358	-1.92984e-05	41	0	21.7448	0
21.7698	2.92359	-1.85654e-05	41	0	21.7698	0
21.7948	2.92359	-1.85272e-05	41	0	21.7948	0
21.8198	2.92356	-1.83631e-05	41	0	21.8198	0
21.8448	2.92355	-1.7546e-05	41	0	21.8448	0
21.8698	2.92359	-1.87563e-05	41	0	21.8698	0
21.8948	2.92359	-1.76415e-05	41	0	21.8948	0
21.9198	2.9236	-1.71833e-05	41	0	21.9198	0
21.9448	2.92355	-1.80996e-05	41	0	21.9448	0
21.9698	2.92358	-1.78476e-05	41	0	21.9698	0
21.9948	2.92359	-1.76071e-05	41	0	21.9948	0
22.0198	2.92356	-1.7924e-05	41	0	22.0198	0
22.0448	2.92359	-1.84012e-05	41	0	22.0448	0
22.0698	2.92359	-1.72712e-05	41	0	22.0698	0
22.0948	2.92357	-1.7714e-05	41	0	22.0948	0
22.1198	2.92358	-1.75613e-05	41	0	22.1198	0
22.1448	2.92354	-1.75346e-05	41	0	22.1448	0
22.1698	2.9236	-1.7023e-05	41	0	22.1698	0
22.1948	2.92357	-1.77178e-05	41	0	22.1948	0
22.2198	2.92355	-1.75995e-05	41	0	22.2198	0
22.2448	2.92363	-1.74086e-05	41	0	22.2448	0
22.2698	2.92356	-1.77064e-05	41	0	22.2698	0
22.2948	2.92359	-1.59006e-05	41	0	22.2948	0
22.3198	2.92355	-1.70726e-05	41	0	22.3198	0
22.3448	2.92355	-1.70421e-05	41	0	22.3448	0
22.3698	2.92357	-1.80233e-05	41	0	22.3698	0
22.3948	2.92362	-1.70344e-05	41	0	22.3948	0
22.4198	2.92359	-1.76949e-05	41	0	22.4198	0
22.4448	2.92359	-1.74735e-05	41	0	22.4448	0
22.4698	2.9236	-1.67863e-05	41	0	22.4698	0
22.4948	2.92359	-1.74239e-05	41	0	22.4948	0
22.5198	2.9236	-1.76109e-05	41	0	22.5198	0
22.5448	2.92354	-1.742e-05	41	0	22.5448	0
22.5698	2.92359	-1.75422e-05	41	0	22.5698	0
22.5948	2.9236	-1.73361e-05	41	0	22.5948	0
22.6198	2.92358	-1.6771e-05	41	0	22.6198	0
22.6448	2.92353	-1.82371e-05	41	0	22.6448	0
22.6698	2.92353	-1.8344e-05	41	0	22.6698	0
22.6948	2.92357	-1.79393e-05	41	0	22.6948	0
22.7198	2.92355	-1.80347e-05	41	0	22.7198	0
22.7448	2.92354	-1.72101e-05	41	0	22.7448	0
22.7698	2.92365	-1.77484e-05	41	0	22.7698	0
22.7948	2.9236	-1.77446e-05	41	0	22.7948	0
22.8198	2.92354	-1.84165e-05	41	0	22.8198	0
22.8448	2.9236	-1.86761e-05	41	0	22.8448	0
22.8698	2.92359	-1.82256e-05	41	0	22.8698	0
22.8946	2.92355	-1.83974e-05	41	0	22.8946	0
22.919	2.93038	0.00838185	41	0	0.024	1
22.944	2.93144	0.00838273	41	0	0.049	1
22.969	2.93203	0.00838162	41	0	0.074	1
22.994	2.93247	0.0083814	41	0	0.099	1
23.0182	2.91937	-0.00842624	41	0	0.023	2
23.0432	2.91734	-0.00842536	41	0	0.048	2
23.0682	2.9162	-0.00842563	41	0	0.073	2
23.0932	2.91551	-0.0084249	41	0	0.098	2
23.1174	2.92846	0.00838174	41	0	0.022	3
23.1424	2.93038	0.0083833	41	0	0.047	3
23.1674	2.93135	0.00838315	41	0	0.072	3
23.1924	2.93205	0.00838365	41	0	0.097	3
23.2174	2.93241	0.00838327	41	0	0.122	3
23.2424	2.93284	0.00838319	41	0	0.147	3
23.2674	2.93307	0.00838357	41	0	0.172	3
23.2924	2.93327	0.00838285	41	0	0.197	3
23.3174	2.93344	0.00838334	41	0	0.222	3
23.3424	2.93366	0.00838197	41	0	0.247	3
23.3674	2.93378	0.00838346	41	0	0.272	3
23.3924	2.9339	0.00838292	41	0	0.297	3
23.4174	2.93408	0.00838315	41	0	0.322	3
23.4424	2.9341	0.00838372	41	0	0.347	3
23.4674	2.93424	0.00838319	41	0	0.372	3
23.4924	2.93434	0.00838311	41	0	0.397	3
23.5174	2.93432	0.00838529	41	0	0.422	3
23.5424	2.93444	0.00838437	41	0	0.447	3
23.5674	2.93451	0.00838373	41	0	0.472	3
23.5924	2.93461	0.0083835	41	0	0.497	3
23.6174	2.93469	0.00838411	41	0	0.522	3
23.6424	2.93474	0.008383	41	0	0.547	3
23.6674	2.93481	0.00838376	41	0	0.572	3
23.6924	2.93485	0.00838304	41	0	0.597	3
23.7174	2.93494	0.00838392	41	0	0.622	3
23.7424	2.93496	0.00838411	41	0	0.647	3
23.7674	2.93499	0.00838437	41	0	0.672	3
23.7924	2.93507	0.00838315	41	0	0.697	3
23.8174	2.93509	0.00838388	41	0	0.722	3
23.8424	2.93519	0.00838487	41	0	0.747	3
23.8674	2.93516	0.00838365	41	0	0.772	3
23.8924	2.93522	0.00838395	41	0	0.797	3
23.9174	2.93526	0.00838415	41	0	0.822	3
23.9424	2.93531	0.00838296	41	0	0.847	3
23.9674	2.93538	0.00838411	41	0	0.872	3
23.9924	2.93536	0.00838296	41	0	0.897	3
24.0174	2.93541	0.00838384	41	0	0.922	3
24.0424	2.93548	0.00838281	41	0	0.947	3
24.0674	2.93546	0.00838426	41	0	0.972	3
24.0924	2.93548	0.00838365	41	0	0.997	3
24.1166	2.92254	-0.00842486	41	0	0.021	4
24.1416	2.92019	-0.00842563	41	0	0.046	4
24.1666	2.91888	-0.00842353	41	0	0.071	4
24.1916	2.91793	-0.00842517	41	0	0.096	4
24.2166	2.91733	-0.00842425	41	0	0.121	4
24.2416	2.91674	-0.00842441	41	0	0.146	4
24.2666	2.91628	-0.00842364	41	0	0.171	4
24.2916	2.9159	-0.00842437	41	0	0.196	4
24.3166	2.91558	-0.00842467	41	0	0.221	4
24.3416	2.91531	-0.00842338	41	0	0.246	4
24.3666	2.91501	-0.00842433	41	0	0.271	4
24.3916	2.91474	-0.00842448	41	0	0.296	4
24.4166	2.91458	-0.0084233	41	0	0.321	4
24.4416	2.91441	-0.00842379	41	0	0.346	4
24.4666	2.91421	-0.00842341	41	0	0.371	4
24.4916	2.9141	-0.00842448	41	0	0.396	4
24.5166	2.91395	-0.00842341	41	0	0.421	4
24.5416	2.91377	-0.00842513	41	0	0.446	4
24.5666	2.91367	-0.00842368	41	0	0.471	4
24.5916	2.91357	-0.0084233	41	0	0.496	4
24.6166	2.91341	-0.00842379	41	0	0.521	4
24.6416	2.91328	-0.00842391	41	0	0.546	4
24.6666	2.91325	-0.00842429	41	0	0.571	4
24.6916	2.91309	-0.00842406	41	0	0.596	4
24.7166	2.91302	-0.00842421	41	0	0.621	4
24.7416	2.91296	-0.00842311	41	0	0.646	4
24.7666	2.91284	-0.00842463	41	0	0.671	4
24.7916	2.91277	-0.00842475	41	0	0.696	4
24.8166	2.91264	-0.00842494	41	0	0.721	4
24.8416	2.91259	-0.0084236	41	0	0.746	4
24.8666	2.91247	-0.0084215	41	0	0.771	4
24.8916	2.91244	-0.00842368	41	0	0.796	4
24.9166	2.91238	-0.0084233	41	0	0.821	4
24.9416	2.91228	-0.00842181	41	0	0.846	4
24.9666	2.91222	-0.0084233	41	0	0.871	4
24.9916	2.91221	-0.00842425	41	0	0.896	4
25.0166	2.91215	-0.00842292	41	0	0.921	4
25.0416	2.91208	-0.00842372	41	0	0.946	4
25.0666	2.91203	-0.00842418	41	0	0.971	4
25.0916	2.91201	-0.00842517	41	0	0.996	4
25.1158	2.92527	0.00838392	41	0	0.02	5
25.1408	2.92774	0.00838441	41	0	0.045	5
25.1658	2.92908	0.00838384	41	0	0.07	5
25.1908	2.92996	0.00838311	41	0	0.095	5
25.2158	2.93058	0.00838579	41	0	0.12	5
25.2408	2.9311	0.00838468	41	0	0.145	5
25.2658	2.93154	0.00838334	41	0	0.17	5
25.2908	2.93191	0.00838468	41	0	0.195	5
25.3158	2.93218	0.00838476	41	0	0.22	5
25.3408	2.93246	0.00838514	41	0	0.245	5
25.3658	2.9327	0.00838464	41	0	0.27	5
25.3908	2.93291	0.00838376	41	0	0.295	5
25.4158	2.93302	0.0083851	41	0	0.32	5
25.4408	2.93322	0.00838617	41	0	0.345	5
25.4658	2.93336	0.00838411	41	0	0.37	5
25.4908	2.9335	0.0083856	41	0	0.395	5
25.5158	2.93359	0.00838518	41	0	0.42	5
25.5408	2.93372	0.00838537	41	0	0.445	5
25.5658	2.9338	0.00838449	41	0	0.47	5
25.5908	2.93395	0.00838502	41	0	0.495	5
25.6158	2.93406	0.00838426	41	0	0.52	5
25.6408	2.93415	0.00838437	41	0	0.545	5
25.6658	2.93421	0.00838373	41	0	0.57	5
25.6908	2.93428	0.00838422	41	0	0.595	5
25.7158	2.93437	0.00838384	41	0	0.62	5
25.7408	2.93445	0.00838346	41	0	0.645	5
25.7658	2.93452	0.00838418	41	0	0.67	5
25.7908	2.93457	0.00838422	41	0	0.695	5
25.8158	2.93471	0.00838415	41	0	0.72	5
25.8408	2.93469	0.00838418	41	0	0.745	5
25.8658	2.93477	0.00838388	41	0	0.77	5
25.8908	2.93481	0.0083856	41	0	0.795	5
25.9158	2.93486	0.00838319	41	0	0.82	5
25.9408	2.93493	0.00838384	41	0	0.845	5
25.9658	2.93494	0.0083838	41	0	0.87	5
25.9908	2.93498	0.008383	41	0	0.895	5
26.0158	2.93502	0.0083838	41	0	0.92	5
26.0408	2.9351	0.00838334	41	0	0.945	5
26.0658	2.93514	0.00838411	41	0	0.97	5
26.0908	2.93521	0.00838445	41	0	0.995	5
26.1158	2.93518	0.00838319	41	0	1.02	5
26.1408	2.93525	0.00838365	41	0	1.045	5
26.1658	2.93528	0.00838308	41	0	1.07	5
26.1908	2.93534	0.00838361	41	0	1.095	5
26.2158	2.93537	0.00838388	41	0	1.12	5
26.2408	2.93541	0.00838357	41	0	1.145	5
26.2658	2.93544	0.00838346	41	0	1.17	5
26.2908	2.93545	0.0083838	41	0	1.195	5
26.3158	2.93552	0.00838434	41	0	1.22	5
26.3408	2.93554	0.00838453	41	0	1.245	5
26.3658	2.93558	0.00838392	41	0	1.27	5
26.3908	2.93561	0.00838464	41	0	1.295	5
26.4158	2.9356	0.00838384	41	0	1.32	5
26.4408	2.93566	0.00838418	41	0	1.345	5
26.4658	2.93567	0.00838384	41	0	1.37	5
26.4908	2.93567	0.00838353	41	0	1.395	5
26.5158	2.93574	0.00838426	41	0	1.42	5
26.5408	2.93578	0.00838456	41	0	1.445	5
26.5658	2.93578	0.00838369	41	0	1.47	5
26.5908	2.93584	0.00838376	41	0	1.495	5
26.6158	2.93585	0.0083846	41	0	1.52	5
26.6408	2.93588	0.00838361	41	0	1.545	5
26.6658	2.93586	0.00838613	41	0	1.57	5
26.6908	2.9359	0.00838388	41	0	1.595	5
26.7158	2.93598	0.00838418	41	0	1.62	5
26.7408	2.93595	0.00838353	41	0	1.645	5
26.7658	2.93604	0.00838456	41	0	1.67	5
26.7908	2.93598	0.00838373	41	0	1.695	5
26.8158	2.93604	0.00838445	41	0	1.72	5
26.8408	2.93601	0.00838308	41	0	1.745	5
26.8658	2.93608	0.00838212	41	0	1.77	5
26.8908	2.93609	0.00838376	41	0	1.795	5
26.9158	2.93612	0.0083843	41	0	1.82	5
26.9408	2.93614	0.008383	41	0	1.845	5
26.9658	2.93611	0.00838266	41	0	1.87	5
26.9908	2.93617	0.00838464	41	0	1.895	5
27.0158	2.93618	0.00838334	41	0	1.92	5
27.0408	2.93623	0.00838327	41	0	1.945	5
27.0658	2.93624	0.00838395	41	0	1.97	5
27.0908	2.93624	0.008383	41	0	1.995	5
27.1158	2.93628	0.00838357	41	0	2.02	5
27.1408	2.93629	0.00838327	41	0	2.045	5
27.1658	2.93636	0.00838338	41	0	2.07	5
27.1908	2.93638	0.00838449	41	0	2.095	5
27.2158	2.93636	0.00838403	41	0	2.12	5
27.2408	2.93637	0.00838285	41	0	2.145	5
27.2658	2.93639	0.00838464	41	0	2.17	5
27.2908	2.93639	0.00838292	41	0	2.195	5
27.3158	2.93639	0.00838476	41	0	2.22	5
27.3408	2.93645	0.00838388	41	0	2.245	5
27.3658	2.93642	0.00838296	41	0	2.27	5
27.3908	2.93651	0.00838434	41	0	2.295	5
27.4158	2.93648	0.00838407	41	0	2.32	5
27.4408	2.93649	0.00838327	41	0	2.345	5
27.4658	2.93648	0.00838361	41	0	2.37	5
27.4908	2.93649	0.00838342	41	0	2.395	5
27.5158	2.93655	0.00838365	41	0	2.42	5
27.5408	2.93654	0.00838327	41	0	2.445	5
27.5658	2.93652	0.00838365	41	0	2.47	5
27.5908	2.93653	0.00838369	41	0	2.495	5
27.6158	2.93655	0.00838361	41	0	2.52	5
27.6408	2.9366	0.00838319	41	0	2.545	5
27.6658	2.9366	0.00838323	41	0	2.57	5
27.6908	2.9366	0.00838395	41	0	2.595	5
27.7158	2.93658	0.00838392	41	0	2.62	5
27.7408	2.93664	0.00838369	41	0	2.645	5
27.7658	2.93664	0.00838411	41	0	2.67	5
27.7908	2.93664	0.00838456	41	0	2.695	5
27.8158	2.93669	0.0083835	41	0	2.72	5
27.8408	2.93671	0.00838338	41	0	2.745	5
27.8658	2.93672	0.00838338	41	0	2.77	5
27.8908	2.93672	0.00838357	41	0	2.795	5
27.9158	2.93671	0.00838292	41	0	2.82	5
27.9408	2.93675	0.00838373	41	0	2.845	5
27.9658	2.93674	0.00838395	41	0	2.87	5
27.9908	2.93674	0.00838418	41	0	2.895	5
28.0158	2.93679	0.00838422	41	0	2.92	5
28.0408	2.93678	0.00838453	41	0	2.945	5
28.0658	2.93679	0.00838372	41	0	2.97	5
28.0908	2.93682	0.00838319	41	0	2.995	5
28.1158	2.9368	0.00838208	41	0	3.02	5
28.1408	2.93685	0.00838403	41	0	3.045	5
28.1658	2.93684	0.00838399	41	0	3.07	5
28.1908	2.93687	0.00838342	41	0	3.095	5
28.2158	2.93687	0.00838453	41	0	3.12	5
28.2408	2.93689	0.00838529	41	0	3.145	5
28.2658	2.93685	0.00838319	41	0	3.17	5
28.2908	2.93687	0.00838464	41	0	3.195	5
28.3158	2.93695	0.00838319	41	0	3.22	5
28.3408	2.93693	0.0083843	41	0	3.245	5
28.3658	2.93694	0.00838426	41	0	3.27	5
28.3908	2.93693	0.00838346	41	0	3.295	5
28.4158	2.93693	0.00838437	41	0	3.32	5
28.4408	2.93695	0.00838369	41	0	3.345	5
28.4658	2.93696	0.00838304	41	0	3.37	5
28.4908	2.937	0.00838315	41	0	3.395	5
28.5158	2.937	0.00838373	41	0	3.42	5
28.5408	2.93699	0.00838361	41	0	3.445	5
28.5658	2.93701	0.0083843	41	0	3.47	5
28.5908	2.93696	0.00838361	41	0	3.495	5
28.6158	2.93697	0.00838392	41	0	3.52	5
28.6408	2.93703	0.00838376	41	0	3.545	5
28.6658	2.93708	0.00838434	41	0	3.57	5
28.6908	2.93705	0.00838422	41	0	3.595	5
28.7158	2.9371	0.00838388	41	0	3.62	5
28.7408	2.93709	0.00838422	41	0	3.645	5
28.7658	2.93703	0.00838346	41	0	3.67	5
28.7908	2.93708	0.00838399	41	0	3.695	5
28.8158	2.93711	0.00838453	41	0	3.72	5
28.8408	2.93717	0.00838357	41	0	3.745	5
28.8658	2.93713	0.00838403	41	0	3.77	5
28.8908	2.93715	0.00838296	41	0	3.795	5
28.9158	2.93715	0.00838392	41	0	3.82	5
28.9408	2.93717	0.00838353	41	0	3.845	5
28.9658	2.93717	0.00838361	41	0	3.87	5
28.9908	2.93719	0.00838315	41	0	3.895	5
29.0158	2.93721	0.00838407	41	0	3.92	5
29.0408	2.93715	0.00838338	41	0	3.945	5
29.0658	2.93724	0.00838212	41	0	3.97	5
29.0908	2.93719	0.00838418	41	0	3.995	5
29.1158	2.93725	0.00838266	41	0	4.02	5
29.1408	2.93724	0.00838342	41	0	4.045	5
29.1658	2.93724	0.00838365	41	0	4.07	5
29.1908	2.93728	0.00838365	41	0	4.095	5
29.2158	2.93728	0.008383	41	0	4.12	5
29.2408	2.93727	0.00838422	41	0	4.145	5
29.2658	2.93729	0.00838422	41	0	4.17	5
29.2908	2.93729	0.0083838	41	0	4.195	5
29.3158	2.93727	0.00838292	41	0	4.22	5
29.3408	2.9373	0.0083825	41	0	4.245	5
29.3658	2.93728	0.00838239	41	0	4.27	5
29.3908	2.9373	0.00838277	41	0	4.295	5
29.4158	2.93732	0.00838319	41	0	4.32	5
29.4408	2.93732	0.00838319	41	0	4.345	5
29.4658	2.93732	0.0083822	41	0	4.37	5
29.4908	2.93737	0.00838289	41	0	4.395	5
29.5158	2.93741	0.00838411	41	0	4.42	5
29.5408	2.93737	0.008383	41	0	4.445	5
29.5658	2.93742	0.008383	41	0	4.47	5
29.5908	2.9374	0.00838205	41	0	4.495	5
29.6158	2.9374	0.00838254	41	0	4.52	5
29.6408	2.9374	0.00838205	41	0	4.545	5
29.6658	2.93741	0.00838292	41	0	4.57	5
29.6908	2.93743	0.00838151	41	0	4.595	5
29.7158	2.93745	0.00838296	41	0	4.62	5
29.7408	2.93743	0.00838197	41	0	4.645	5
29.7658	2.93743	0.00838243	41	0	4.67	5
29.7908	2.93744	0.00838246	41	0	4.695	5
29.8158	2.93746	0.00838174	41	0	4.72	5
29.8408	2.93744	0.00838288	41	0	4.745	5
29.8658	2.93746	0.00838227	41	0	4.77	5
29.8908	2.93749	0.00838185	41	0	4.795	5
29.9158	2.93746	0.00838166	41	0	4.82	5
29.9408	2.93745	0.00838162	41	0	4.845	5
29.9658	2.93751	0.00838243	41	0	4.87	5
29.9908	2.9375	0.00838159	41	0	4.895	5
30.0158	2.93744	0.00838269	41	0	4.92	5
30.0408	2.93752	0.00838235	41	0	4.945	5
30.0658	2.93753	0.00838235	41	0	4.97	5
30.0908	2.93752	0.00838281	41	0	4.995	5
30.1158	2.93755	0.00838193	41	0	5.02	5
30.1408	2.9375	0.00838193	41	0	5.045	5
30.1658	2.93753	0.00838266	41	0	5.07	5
30.1908	2.93758	0.0083822	41	0	5.095	5
30.2158	2.93757	0.00838136	41	0	5.12	5
30.2408	2.93755	0.00838189	41	0	5.145	5
30.2658	2.93754	0.00838227	41	0	5.17	5
30.2908	2.93757	0.0083822	41	0	5.195	5
30.3158	2.93762	0.0083809	41	0	5.22	5
30.3408	2.93755	0.0083822	41	0	5.245	5
30.3658	2.93757	0.00838182	41	0	5.27	5
30.3908	2.93761	0.00838239	41	0	5.295	5
30.4158	2.93764	0.00838193	41	0	5.32	5
30.4408	2.93757	0.00838163	41	0	5.345	5
30.4658	2.93762	0.00838212	41	0	5.37	5
30.4908	2.93764	0.00838101	41	0	5.395	5
30.5158	2.93758	0.00838369	41	0	5.42	5
30.5408	2.93762	0.00838166	41	0	5.445	5
30.5658	2.93762	0.00838292	41	0	5.47	5
30.5908	2.93769	0.0083822	41	0	5.495	5
30.6158	2.93766	0.00838205	41	0	5.52	5
30.6408	2.93765	0.00838227	41	0	5.545	5
30.6658	2.93766	0.00838162	41	0	5.57	5
30.6908	2.93767	0.0083822	41	0	5.595	5
30.7158	2.93773	0.00838231	41	0	5.62	5
30.7408	2.93763	0.0083825	41	0	5.645	5
30.7658	2.9377	0.00838266	41	0	5.67	5
30.7908	2.9377	0.00838227	41	0	5.695	5
30.8158	2.9377	0.00838296	41	0	5.72	5
30.8408	2.93773	0.00838319	41	0	5.745	5
30.8658	2.93774	0.00838342	41	0	5.77	5
30.8908	2.93773	0.00838285	41	0	5.795	5
30.9158	2.93775	0.00838262	41	0	5.82	5
30.9408	2.93773	0.00838269	41	0	5.845	5
30.9658	2.93777	0.0083835	41	0	5.87	5
30.9908	2.93775	0.00838239	41	0	5.895	5
31.0158	2.93777	0.00838426	41	0	5.92	5
31.0408	2.93773	0.00838239	41	0	5.945	5
31.0658	2.93775	0.00838243	41	0	5.97	5
31.0908	2.93778	0.00838311	41	0	5.995	5
31.1158	2.93774	0.00838376	41	0	6.02	5
31.1408	2.9378	0.00838269	41	0	6.045	5
31.1658	2.93778	0.00838243	41	0	6.07	5
31.1908	2.93778	0.00838392	41	0	6.095	5
31.2158	2.93778	0.00838315	41	0	6.12	5
31.2408	2.93774	0.00838269	41	0	6.145	5
31.2658	2.93782	0.00838304	41	0	6.17	5
31.2908	2.9378	0.008383	41	0	6.195	5
31.3158	2.93783	0.00838304	41	0	6.22	5
31.3408	2.93783	0.00838262	41	0	6.245	5
31.3658	2.93783	0.00838308	41	0	6.27	5
31.3908	2.93784	0.00838373	41	0	6.295	5
31.4158	2.93786	0.00838472	41	0	6.32	5
31.4408	2.93784	0.00838296	41	0	6.345	5
31.4658	2.93785	0.0083835	41	0	6.37	5
31.4908	2.93785	0.00838319	41	0	6.395	5
31.5158	2.93788	0.00838262	41	0	6.42	5
31.5408	2.93783	0.00838266	41	0	6.445	5
31.5658	2.93784	0.00838327	41	0	6.47	5
31.5908	2.93786	0.00838281	41	0	6.495	5
31.6158	2.93788	0.00838311	41	0	6.52	5
31.6408	2.93786	0.00838243	41	0	6.545	5
31.6658	2.93794	0.00838289	41	0	6.57	5
31.6908	2.93787	0.00838319	41	0	6.595	5
31.7158	2.93789	0.00838411	41	0	6.62	5
31.7408	2.93789	0.0083833	41	0	6.645	5
31.7658	2.93788	0.00838342	41	0	6.67	5
31.7908	2.93789	0.0083825	41	0	6.695	5
31.8158	2.93789	0.00838407	41	0	6.72	5
31.8408	2.93796	0.00838269	41	0	6.745	5
31.8658	2.93792	0.00838399	41	0	6.77	5
31.8908	2.93799	0.00838334	41	0	6.795	5
31.9158	2.93795	0.00838296	41	0	6.82	5
31.9408	2.93793	0.00838216	41	0	6.845	5
31.9658	2.93793	0.00838262	41	0	6.87	5
31.9908	2.93798	0.00838246	41	0	6.895	5
32.0158	2.93795	0.00838357	41	0	6.92	5
32.0408	2.93797	0.00838258	41	0	6.945	5
32.0658	2.93793	0.00838208	41	0	6.97	5
32.0908	2.93801	0.00838289	41	0	6.995	5
32.1158	2.93799	0.00838395	41	0	7.02	5
32.1408	2.93799	0.00838239	41	0	7.045	5
32.1658	2.938	0.00838224	41	0	7.07	5
32.1908	2.938	0.00838239	41	0	7.095	5
32.2158	2.93797	0.00838277	41	0	7.12	5
32.2408	2.93796	0.00838178	41	0	7.145	5
32.2658	2.93799	0.00838243	41	0	7.17	5
32.2908	2.93801	0.00838132	41	0	7.195	5
32.3158	2.93804	0.00838246	41	0	7.22	5
32.3408	2.93801	0.00838338	41	0	7.245	5
32.3658	2.93803	0.00838185	41	0	7.27	5
32.3908	2.93802	0.0083838	41	0	7.295	5
32.4158	2.93798	0.00838185	41	0	7.32	5
32.4408	2.93805	0.00838361	41	0	7.345	5
32.4658	2.93804	0.00838281	41	0	7.37	5
32.4908	2.93804	0.00838185	41	0	7.395	5
32.5158	2.93803	0.00838189	41	0	7.42	5
32.5408	2.93804	0.00838174	41	0	7.445	5
32.5658	2.93808	0.00838201	41	0	7.47	5
32.5908	2.93809	0.00838315	41	0	7.495	5
32.6158	2.93807	0.00838185	41	0	7.52	5
32.6408	2.93809	0.00838101	41	0	7.545	5
32.6658	2.93807	0.00838231	41	0	7.57	5
32.6908	2.93807	0.00838212	41	0	7.595	5
32.7158	2.93803	0.00838185	41	0	7.62	5
32.7408	2.93815	0.00838216	41	0	7.645	5
32.7658	2.93808	0.00838285	41	0	7.67	5
32.7908	2.93809	0.00838185	41	0	7.695	5
32.8158	2.9381	0.00838197	41	0	7.72	5
32.8408	2.9381	0.00838216	41	0	7.745	5
32.8658	2.93807	0.00838128	41	0	7.77	5
32.8908	2.93815	0.00838277	41	0	7.795	5
32.9158	2.93815	0.00838205	41	0	7.82	5
32.9408	2.93811	0.008383	41	0	7.845	5
32.9658	2.93816	0.00838212	41	0	7.87	5
32.9908	2.93818	0.00838308	41	0	7.895	5
33.0158	2.93817	0.00838235	41	0	7.92	5
33.0408	2.93813	0.00838212	41	0	7.945	5
33.0658	2.9382	0.00838162	41	0	7.97	5
33.0908	2.93818	0.00838201	41	0	7.995	5
33.1158	2.93814	0.00838151	41	0	8.02	5
33.1408	2.93813	0.00838143	41	0	8.045	5
33.1658	2.93824	0.00838205	41	0	8.07	5
33.1908	2.93816	0.00838147	41	0	8.095	5
33.2158	2.93817	0.00838147	41	0	8.12	5
33.2408	2.93822	0.00838098	41	0	8.145	5
33.2658	2.93818	0.00838166	41	0	8.17	5
33.2908	2.93821	0.00838296	41	0	8.195	5
33.3158	2.93817	0.00838216	41	0	8.22	5
33.3408	2.93822	0.00838205	41	0	8.245	5
33.3658	2.93824	0.00838162	41	0	8.27	5
33.3908	2.93818	0.00838151	41	0	8.295	5
33.4158	2.9382	0.00838239	41	0	8.32	5
33.4408	2.93825	0.00838216	41	0	8.345	5
33.4658	2.93822	0.00838254	41	0	8.37	5
33.4908	2.93821	0.00838178	41	0	8.395	5
33.5158	2.9382	0.00838224	41	0	8.42	5
33.5408	2.93826	0.00838182	41	0	8.445	5
33.5658	2.93825	0.00838113	41	0	8.47	5
33.5908	2.93822	0.00838136	41	0	8.495	5
33.6158	2.93824	0.00838216	41	0	8.52	5
33.6408	2.9382	0.00838182	41	0	8.545	5
33.6658	2.93826	0.00838174	41	0	8.57	5
33.6908	2.9383	0.00838151	41	0	8.595	5
33.7158	2.93831	0.00838285	41	0	8.62	5
33.7408	2.93828	0.00838205	41	0	8.645	5
33.7658	2.93824	0.00838128	41	0	8.67	5
33.7908	2.93831	0.0083822	41	0	8.695	5
33.8158	2.93829	0.00838216	41	0	8.72	5
33.8408	2.93828	0.00838124	41	0	8.745	5
33.8658	2.93828	0.00838163	41	0	8.77	5
33.8908	2.9383	0.00838254	41	0	8.795	5
33.9158	2.93828	0.00838166	41	0	8.82	5
33.9408	2.93829	0.00838296	41	0	8.845	5
33.9658	2.93827	0.00838216	41	0	8.87	5
33.9908	2.93832	0.00838136	41	0	8.895	5
34.0158	2.93832	0.00838162	41	0	8.92	5
34.0408	2.93829	0.00838136	41	0	8.945	5
34.0658	2.93829	0.00838086	41	0	8.97	5
34.0908	2.9383	0.00838205	41	0	8.995	5
34.1158	2.93834	0.00838101	41	0	9.02	5
34.1408	2.93831	0.00838147	41	0	9.045	5
34.1658	2.93833	0.00838239	41	0	9.07	5
34.1908	2.9383	0.00838178	41	0	9.095	5
34.2158	2.93833	0.00838166	41	0	9.12	5
34.2408	2.93832	0.00838124	41	0	9.145	5
34.2658	2.93836	0.00838277	41	0	9.17	5
34.2908	2.93833	0.00838193	41	0	9.195	5
34.3158	2.93832	0.00838182	41	0	9.22	5
34.3408	2.93833	0.0083817	41	0	9.245	5
34.3658	2.93837	0.00838182	41	0	9.27	5
34.3908	2.93835	0.00838132	41	0	9.295	5
34.4158	2.93836	0.00838311	41	0	9.32	5
34.4408	2.93838	0.00838285	41	0	9.345	5
34.4658	2.93835	0.00838197	41	0	9.37	5
34.4908	2.93839	0.00838281	41	0	9.395	5
34.5158	2.93835	0.00838227	41	0	9.42	5
34.5408	2.93837	0.00838243	41	0	9.445	5
34.5658	2.93839	0.00838227	41	0	9.47	5
34.5908	2.93838	0.00838273	41	0	9.495	5
34.6158	2.93841	0.00838193	41	0	9.52	5
34.6408	2.93836	0.00838311	41	0	9.545	5
34.6658	2.93838	0.00838182	41	0	9.57	5
34.6908	2.93841	0.00838227	41	0	9.595	5
34.7158	2.9384	0.00838246	41	0	9.62	5
34.7408	2.93843	0.00838151	41	0	9.645	5
34.7658	2.93841	0.00838182	41	0	9.67	5
34.7908	2.93842	0.00838155	41	0	9.695	5
34.8158	2.93841	0.00838296	41	0	9.72	5
34.8408	2.93839	0.0083833	41	0	9.745	5
34.8658	2.93841	0.00838243	41	0	9.77	5
34.8908	2.93842	0.00838246	41	0	9.795	5
34.9158	2.93844	0.0083822	41	0	9.82	5
34.9408	2.93843	0.00838285	41	0	9.845	5
34.9658	2.93844	0.00838098	41	0	9.87	5
34.9908	2.93847	0.00838205	41	0	9.895	5
35.0158	2.93843	0.00838308	41	0	9.92	5
35.0408	2.93849	0.00838155	41	0	9.945	5
35.0658	2.93846	0.00838208	41	0	9.97	5
35.0908	2.93849	0.00838117	41	0	9.995	5
35.115	2.92593	-0.00842521	41	0	0.019	6
35.14	2.92349	-0.00842486	41	0	0.044	6
35.165	2.9221	-0.00842632	41	0	0.069	6
35.19	2.92121	-0.00842589	41	0	0.094	6
35.215	2.92053	-0.00842647	41	0	0.119	6
35.24	2.91998	-0.00842593	41	0	0.144	6
35.265	2.91952	-0.00842589	41	0	0.169	6
35.29	2.91913	-0.00842612	41	0	0.194	6
35.315	2.91878	-0.00842631	41	0	0.219	6
35.34	2.91851	-0.00842605	41	0	0.244	6
35.365	2.91818	-0.00842555	41	0	0.269	6
35.39	2.91798	-0.00842727	41	0	0.294	6
35.415	2.91775	-0.00842601	41	0	0.319	6
35.44	2.91749	-0.00842574	41	0	0.344	6
35.465	2.91733	-0.00842685	41	0	0.369	6
35.49	2.91716	-0.00842525	41	0	0.394	6
35.515	2.91696	-0.00842574	41	0	0.419	6
35.54	2.91686	-0.0084257	41	0	0.444	6
35.565	2.91667	-0.00842536	41	0	0.469	6
35.59	2.91653	-0.00842502	41	0	0.494	6
35.615	2.91639	-0.00842498	41	0	0.519	6
35.64	2.9163	-0.00842502	41	0	0.544	6
35.665	2.91614	-0.00842601	41	0	0.569	6
35.69	2.9161	-0.00842521	41	0	0.594	6
35.715	2.9159	-0.0084254	41	0	0.619	6
35.74	2.91582	-0.00842574	41	0	0.644	6
35.765	2.91575	-0.00842532	41	0	0.669	6
35.79	2.9156	-0.0084267	41	0	0.694	6
35.815	2.91555	-0.00842589	41	0	0.719	6
35.84	2.91546	-0.00842528	41	0	0.744	6
35.865	2.91537	-0.00842582	41	0	0.769	6
35.89	2.91525	-0.00842742	41	0	0.794	6
35.915	2.91513	-0.00842548	41	0	0.819	6
35.94	2.91509	-0.00842601	41	0	0.844	6
35.965	2.915	-0.00842605	41	0	0.869	6
35.99	2.91495	-0.00842483	41	0	0.894	6
36.015	2.91492	-0.00842513	41	0	0.919	6
36.04	2.91477	-0.00842605	41	0	0.944	6
36.065	2.91473	-0.00842536	41	0	0.969	6
36.09	2.91465	-0.00842548	41	0	0.994	6
36.115	2.91459	-0.00842517	41	0	1.019	6
36.14	2.91456	-0.00842597	41	0	1.044	6
36.165	2.91443	-0.00842589	41	0	1.069	6
36.19	2.91444	-0.00842624	41	0	1.094	6
36.215	2.91434	-0.00842658	41	0	1.119	6
36.24	2.91426	-0.00842593	41	0	1.144	6
36.265	2.91425	-0.00842559	41	0	1.169	6
36.29	2.9142	-0.00842586	41	0	1.194	6
36.315	2.91412	-0.00842555	41	0	1.219	6
36.34	2.91405	-0.0084254	41	0	1.244	6
36.365	2.91402	-0.00842616	41	0	1.269	6
36.39	2.91399	-0.00842605	41	0	1.294	6
36.415	2.91385	-0.00842502	41	0	1.319	6
36.44	2.91389	-0.00842551	41	0	1.344	6
36.465	2.91379	-0.00842544	41	0	1.369	6
36.49	2.91379	-0.00842574	41	0	1.394	6
36.515	2.91375	-0.00842555	41	0	1.419	6
36.54	2.91367	-0.00842551	41	0	1.444	6
36.565	2.91364	-0.00842525	41	0	1.469	6
36.59	2.91365	-0.00842463	41	0	1.494	6
36.615	2.91356	-0.00842498	41	0	1.519	6
36.64	2.9135	-0.00842414	41	0	1.544	6
36.665	2.91348	-0.00842456	41	0	1.569	6
36.69	2.91341	-0.00842513	41	0	1.594	6
36.715	2.91336	-0.00842463	41	0	1.619	6
36.74	2.91332	-0.00842463	41	0	1.644	6
36.765	2.91328	-0.00842513	41	0	1.669	6
36.79	2.91325	-0.0084257	41	0	1.694	6
36.815	2.9132	-0.00842475	41	0	1.719	6
36.84	2.91322	-0.00842498	41	0	1.744	6
36.865	2.91316	-0.00842563	41	0	1.769	6
36.89	2.91307	-0.0084249	41	0	1.794	6
36.915	2.91307	-0.00842563	41	0	1.819	6
36.94	2.91301	-0.00842589	41	0	1.844	6
36.965	2.91302	-0.00842532	41	0	1.869	6
36.99	2.91296	-0.00842433	41	0	1.894	6
37.015	2.9129	-0.00842593	41	0	1.919	6
37.04	2.91287	-0.00842654	41	0	1.944	6
37.065	2.9129	-0.0084249	41	0	1.969	6
37.09	2.91284	-0.00842494	41	0	1.994	6
37.115	2.91277	-0.00842609	41	0	2.019	6
37.14	2.91276	-0.00842494	41	0	2.044	6
37.165	2.91269	-0.00842494	41	0	2.069	6
37.19	2.91266	-0.00842589	41	0	2.094	6
37.215	2.91268	-0.00842532	41	0	2.119	6
37.24	2.91263	-0.00842486	41	0	2.144	6
37.265	2.91259	-0.0084233	41	0	2.169	6
37.29	2.91255	-0.00842486	41	0	2.194	6
37.315	2.9125	-0.0084246	41	0	2.219	6
37.34	2.91253	-0.00842532	41	0	2.244	6
37.365	2.91246	-0.00842456	41	0	2.269	6
37.39	2.91246	-0.00842528	41	0	2.294	6
37.415	2.91245	-0.00842505	41	0	2.319	6
37.44	2.91239	-0.00842502	41	0	2.344	6
37.465	2.91237	-0.00842483	41	0	2.369	6
37.49	2.91233	-0.00842582	41	0	2.394	6
37.515	2.91228	-0.00842559	41	0	2.419	6
37.54	2.91228	-0.00842418	41	0	2.444	6
37.565	2.91225	-0.00842444	41	0	2.469	6
37.59	2.91224	-0.00842456	41	0	2.494	6
37.615	2.91223	-0.00842395	41	0	2.519	6
37.64	2.9122	-0.00842551	41	0	2.544	6
37.665	2.9122	-0.00842475	41	0	2.569	6
37.69	2.91212	-0.00842448	41	0	2.594	6
37.715	2.91211	-0.00842551	41	0	2.619	6
37.74	2.91208	-0.00842559	41	0	2.644	6
37.765	2.91209	-0.00842483	41	0	2.669	6
37.79	2.91198	-0.00842559	41	0	2.694	6
37.815	2.91205	-0.00842479	41	0	2.719	6
37.84	2.91197	-0.00842567	41	0	2.744	6
37.865	2.91199	-0.00842567	41	0	2.769	6
37.89	2.91199	-0.0084254	41	0	2.794	6
37.915	2.91194	-0.00842513	41	0	2.819	6
37.94	2.91192	-0.00842616	41	0	2.844	6
37.965	2.91186	-0.00842494	41	0	2.869	6
37.99	2.9119	-0.0084257	41	0	2.894	6
38.015	2.91187	-0.0084267	41	0	2.919	6
38.04	2.91181	-0.00842525	41	0	2.944	6
38.065	2.91178	-0.00842586	41	0	2.969	6
38.09	2.91174	-0.00842532	41	0	2.994	6
38.115	2.91176	-0.00842589	41	0	3.019	6
38.14	2.91173	-0.00842616	41	0	3.044	6
38.165	2.91164	-0.00842479	41	0	3.069	6
38.19	2.91165	-0.00842559	41	0	3.094	6
38.215	2.91163	-0.00842505	41	0	3.119	6
38.24	2.91165	-0.00842574	41	0	3.144	6
38.265	2.91163	-0.00842555	41	0	3.169	6
38.29	2.91161	-0.00842544	41	0	3.194	6
38.315	2.91155	-0.0084257	41	0	3.219	6
38.34	2.91155	-0.00842586	41	0	3.244	6
38.365	2.91152	-0.00842448	41	0	3.269	6
38.39	2.9115	-0.00842597	41	0	3.294	6
38.415	2.91152	-0.00842479	41	0	3.319	6
38.44	2.91146	-0.00842651	41	0	3.344	6
38.465	2.91144	-0.0084257	41	0	3.369	6
38.49	2.91141	-0.00842582	41	0	3.394	6
38.515	2.91141	-0.00842628	41	0	3.419	6
38.54	2.91137	-0.00842502	41	0	3.444	6
38.565	2.91138	-0.00842567	41	0	3.469	6
38.59	2.91133	-0.00842528	41	0	3.494	6
38.615	2.91131	-0.00842586	41	0	3.519	6
38.64	2.91128	-0.00842559	41	0	3.544	6
38.665	2.91126	-0.00842586	41	0	3.569	6
38.69	2.91123	-0.00842502	41	0	3.594	6
38.715	2.91125	-0.00842563	41	0	3.619	6
38.74	2.91123	-0.00842559	41	0	3.644	6
38.765	2.91119	-0.00842551	41	0	3.669	6
38.79	2.91127	-0.00842548	41	0	3.694	6
38.815	2.9112	-0.00842517	41	0	3.719	6
38.84	2.91117	-0.00842639	41	0	3.744	6
38.865	2.91114	-0.00842528	41	0	3.769	6
38.89	2.91107	-0.00842528	41	0	3.794	6
38.915	2.91113	-0.00842544	41	0	3.819	6
38.94	2.91109	-0.00842418	41	0	3.844	6
38.965	2.91112	-0.00842559	41	0	3.869	6
38.99	2.91112	-0.00842612	41	0	3.894	6
39.015	2.91106	-0.00842589	41	0	3.919	6
39.04	2.91102	-0.00842563	41	0	3.944	6
39.065	2.91106	-0.00842532	41	0	3.969	6
39.09	2.91099	-0.00842521	41	0	3.994	6
39.115	2.91098	-0.00842567	41	0	4.019	6
39.14	2.91099	-0.00842479	41	0	4.044	6
39.165	2.91096	-0.00842517	41	0	4.069	6
39.19	2.91093	-0.00842532	41	0	4.094	6
39.215	2.91093	-0.00842494	41	0	4.119	6
39.24	2.91092	-0.00842452	41	0	4.144	6
39.265	2.91095	-0.00842525	41	0	4.169	6
39.29	2.91086	-0.00842505	41	0	4.194	6
39.315	2.91089	-0.00842502	41	0	4.219	6
39.34	2.91082	-0.00842505	41	0	4.244	6
39.365	2.91085	-0.00842528	41	0	4.269	6
39.39	2.91086	-0.00842559	41	0	4.294	6
39.415	2.9108	-0.00842551	41	0	4.319	6
39.44	2.91082	-0.0084254	41	0	4.344	6
39.465	2.91076	-0.00842574	41	0	4.369	6
39.49	2.91074	-0.00842612	41	0	4.394	6
39.515	2.91072	-0.00842502	41	0	4.419	6
39.54	2.91072	-0.00842406	41	0	4.444	6
39.565	2.91072	-0.00842483	41	0	4.469	6
39.59	2.91072	-0.00842578	41	0	4.494	6
39.615	2.91072	-0.00842544	41	0	4.519	6
39.64	2.91065	-0.00842387	41	0	4.544	6
39.665	2.91064	-0.00842563	41	0	4.569	6
39.69	2.91066	-0.00842502	41	0	4.594	6
39.715	2.91061	-0.00842494	41	0	4.619	6
39.74	2.91064	-0.00842601	41	0	4.644	6
39.765	2.91062	-0.00842502	41	0	4.669	6
39.79	2.91058	-0.00842548	41	0	4.694	6
39.815	2.91052	-0.00842399	41	0	4.719	6
39.84	2.91054	-0.00842521	41	0	4.744	6
39.865	2.91058	-0.00842563	41	0	4.769	6
39.89	2.91053	-0.0084254	41	0	4.794	6
39.915	2.91055	-0.00842471	41	0	4.819	6
39.94	2.91049	-0.00842433	41	0	4.844	6
39.965	2.91053	-0.00842567	41	0	4.869	6
39.99	2.91048	-0.00842548	41	0	4.894	6
40.015	2.91048	-0.00842578	41	0	4.919	6
40.04	2.91047	-0.00842475	41	0	4.944	6
40.065	2.91046	-0.00842498	41	0	4.969	6
40.09	2.91046	-0.00842467	41	0	4.994	6
40.115	2.9104	-0.00842509	41	0	5.019	6
40.14	2.91043	-0.00842551	41	0	5.044	6
40.165	2.91039	-0.00842479	41	0	5.069	6
40.19	2.91036	-0.00842548	41	0	5.094	6
40.215	2.91036	-0.00842475	41	0	5.119	6
40.24	2.91033	-0.00842597	41	0	5.144	6
40.265	2.91035	-0.00842673	41	0	5.169	6
40.29	2.91026	-0.00842578	41	0	5.194	6
40.315	2.9103	-0.00842593	41	0	5.219	6
40.34	2.91028	-0.00842467	41	0	5.244	6
40.365	2.91027	-0.00842502	41	0	5.269	6
40.39	2.91027	-0.00842505	41	0	5.294	6
40.415	2.91027	-0.00842586	41	0	5.319	6
40.44	2.91025	-0.00842548	41	0	5.344	6
40.465	2.91023	-0.00842548	41	0	5.369	6
40.49	2.91024	-0.00842525	41	0	5.394	6
40.515	2.91021	-0.00842589	41	0	5.419	6
40.54	2.91022	-0.00842528	41	0	5.444	6
40.565	2.91019	-0.00842517	41	0	5.469	6
40.59	2.91022	-0.00842548	41	0	5.494	6
40.615	2.91022	-0.00842612	41	0	5.519	6
40.64	2.91021	-0.00842525	41	0	5.544	6
40.665	2.91019	-0.00842578	41	0	5.569	6
40.69	2.91014	-0.00842612	41	0	5.594	6
40.715	2.91013	-0.00842551	41	0	5.619	6
40.74	2.91014	-0.00842616	41	0	5.644	6
40.765	2.91015	-0.00842689	41	0	5.669	6
40.79	2.91013	-0.00842567	41	0	5.694	6
40.815	2.91008	-0.00842631	41	0	5.719	6
40.84	2.91008	-0.0084262	41	0	5.744	6
40.865	2.91006	-0.00842673	41	0	5.769	6
40.89	2.91008	-0.00842463	41	0	5.794	6
40.915	2.91006	-0.00842609	41	0	5.819	6
40.94	2.91006	-0.00842605	41	0	5.844	6
40.965	2.91	-0.00842548	41	0	5.869	6
40.99	2.90996	-0.00842601	41	0	5.894	6
41.015	2.91006	-0.00842582	41	0	5.919	6
41.04	2.90999	-0.00842509	41	0	5.944	6
41.065	2.90999	-0.00842589	41	0	5.969	6
41.09	2.91002	-0.00842448	41	0	5.994	6
41.115	2.90996	-0.00842567	41	0	6.019	6
41.14	2.90999	-0.00842574	41	0	6.044	6
41.165	2.90995	-0.0084262	41	0	6.069	6
41.19	2.90995	-0.00842654	41	0	6.094	6
41.215	2.90989	-0.00842471	41	0	6.119	6
41.24	2.90992	-0.00842631	41	0	6.144	6
41.265	2.90992	-0.00842616	41	0	6.169	6
41.29	2.90992	-0.00842567	41	0	6.194	6
41.315	2.9099	-0.00842574	41	0	6.219	6
41.34	2.90988	-0.00842536	41	0	6.244	6
41.365	2.90984	-0.00842563	41	0	6.269	6
41.39	2.90989	-0.00842437	41	0	6.294	6
41.415	2.90985	-0.00842448	41	0	6.319	6
41.44	2.90984	-0.00842631	41	0	6.344	6
41.465	2.90982	-0.00842574	41	0	6.369	6
41.49	2.90978	-0.00842735	41	0	6.394	6
41.515	2.90983	-0.00842589	41	0	6.419	6
41.54	2.90981	-0.0084254	41	0	6.444	6
41.565	2.90979	-0.0084257	41	0	6.469	6
41.59	2.90978	-0.00842567	41	0	6.494	6
41.615	2.90975	-0.00842601	41	0	6.519	6
41.64	2.90974	-0.0084254	41	0	6.544	6
41.665	2.90972	-0.00842494	41	0	6.569	6
41.69	2.90974	-0.00842479	41	0	6.594	6
41.715	2.90971	-0.00842471	41	0	6.619	6
41.74	2.9097	-0.00842547	41	0	6.644	6
41.765	2.90971	-0.00842452	41	0	6.669	6
41.79	2.90971	-0.00842525	41	0	6.694	6
41.815	2.90965	-0.00842368	41	0	6.719	6
41.84	2.9097	-0.00842517	41	0	6.744	6
41.865	2.9097	-0.00842532	41	0	6.769	6
41.89	2.90967	-0.00842467	41	0	6.794	6
41.915	2.90962	-0.0084246	41	0	6.819	6
41.94	2.90965	-0.0084244	41	0	6.844	6
41.965	2.90963	-0.00842521	41	0	6.869	6
41.99	2.90966	-0.00842452	41	0	6.894	6
42.015	2.9096	-0.00842479	41	0	6.919	6
42.04	2.90964	-0.00842517	41	0	6.944	6
42.065	2.9096	-0.00842536	41	0	6.969	6
42.09	2.90959	-0.00842475	41	0	6.994	6
42.115	2.90957	-0.00842548	41	0	7.019	6
42.14	2.90954	-0.00842589	41	0	7.044	6
42.165	2.90959	-0.0084244	41	0	7.069	6
42.19	2.90957	-0.00842544	41	0	7.094	6
42.215	2.90953	-0.00842521	41	0	7.119	6
42.24	2.90951	-0.00842483	41	0	7.144	6
42.265	2.90958	-0.00842273	41	0	7.169	6
42.29	2.90955	-0.00842513	41	0	7.194	6
42.315	2.90952	-0.00842494	41	0	7.219	6
42.34	2.90948	-0.00842479	41	0	7.244	6
42.365	2.90949	-0.00842563	41	0	7.269	6
42.39	2.90946	-0.00842544	41	0	7.294	6
42.415	2.90942	-0.00842414	41	0	7.319	6
42.44	2.90946	-0.00842548	41	0	7.344	6
42.465	2.90946	-0.00842544	41	0	7.369	6
42.49	2.90949	-0.00842433	41	0	7.394	6
42.515	2.90946	-0.0084249	41	0	7.419	6
42.54	2.90943	-0.00842601	41	0	7.444	6
42.565	2.90942	-0.00842578	41	0	7.469	6
42.59	2.90943	-0.00842544	41	0	7.494	6
42.615	2.90941	-0.00842418	41	0	7.519	6
42.64	2.90936	-0.00842528	41	0	7.544	6
42.665	2.90942	-0.00842567	41	0	7.569	6
42.69	2.90936	-0.00842547	41	0	7.594	6
42.715	2.90936	-0.00842448	41	0	7.619	6
42.74	2.90936	-0.00842471	41	0	7.644	6
42.765	2.90938	-0.00842513	41	0	7.669	6
42.79	2.90933	-0.00842536	41	0	7.694	6
42.815	2.90937	-0.0084254	41	0	7.719	6
42.84	2.90933	-0.00842475	41	0	7.744	6
42.865	2.90937	-0.00842429	41	0	7.769	6
42.89	2.90934	-0.0084249	41	0	7.794	6
42.915	2.90932	-0.00842463	41	0	7.819	6
42.94	2.9093	-0.00842505	41	0	7.844	6
42.965	2.90927	-0.00842494	41	0	7.869	6
42.99	2.90932	-0.00842452	41	0	7.894	6
43.015	2.90928	-0.00842498	41	0	7.919	6
43.04	2.90927	-0.00842471	41	0	7.944	6
43.065	2.90922	-0.00842448	41	0	7.969	6
43.09	2.90926	-0.00842399	41	0	7.994	6
43.115	2.90923	-0.00842444	41	0	8.019	6
43.14	2.90923	-0.00842544	41	0	8.044	6
43.165	2.90923	-0.00842479	41	0	8.069	6
43.19	2.90922	-0.00842555	41	0	8.094	6
43.215	2.90918	-0.00842379	41	0	8.119	6
43.24	2.90923	-0.00842433	41	0	8.144	6
43.265	2.90916	-0.0084249	41	0	8.169	6
43.29	2.90923	-0.00842486	41	0	8.194	6
43.315	2.90915	-0.00842479	41	0	8.219	6
43.34	2.90918	-0.00842337	41	0	8.244	6
43.365	2.90921	-0.0084244	41	0	8.269	6
43.39	2.90917	-0.00842433	41	0	8.294	6
43.415	2.90914	-0.00842399	41	0	8.319	6
43.44	2.9091	-0.00842315	41	0	8.344	6
43.465	2.90914	-0.0084241	41	0	8.369	6
43.49	2.90911	-0.0084244	41	0	8.394	6
43.515	2.9091	-0.00842483	41	0	8.419	6
43.54	2.90915	-0.00842532	41	0	8.444	6
43.565	2.90913	-0.00842536	41	0	8.469	6
43.59	2.9091	-0.00842502	41	0	8.494	6
43.615	2.90913	-0.00842502	41	0	8.519	6
43.64	2.90907	-0.00842498	41	0	8.544	6
43.665	2.90906	-0.00842505	41	0	8.569	6
43.69	2.90911	-0.00842605	41	0	8.594	6
43.715	2.90904	-0.00842444	41	0	8.619	6
43.74	2.90903	-0.00842471	41	0	8.644	6
43.765	2.90904	-0.00842437	41	0	8.669	6
43.79	2.90905	-0.00842467	41	0	8.694	6
43.815	2.90907	-0.00842528	41	0	8.719	6
43.84	2.90909	-0.00842425	41	0	8.744	6
43.865	2.90903	-0.00842414	41	0	8.769	6
43.89	2.90901	-0.00842425	41	0	8.794	6
43.915	2.90901	-0.00842486	41	0	8.819	6
43.94	2.909	-0.00842364	41	0	8.844	6
43.965	2.90903	-0.00842395	41	0	8.869	6
43.99	2.90901	-0.00842383	41	0	8.894	6
44.015	2.90899	-0.00842509	41	0	8.919	6
44.04	2.90895	-0.00842452	41	0	8.944	6
44.065	2.90898	-0.00842414	41	0	8.969	6
44.09	2.90896	-0.0084244	41	0	8.994	6
44.115	2.90896	-0.00842441	41	0	9.019	6
44.14	2.90897	-0.0084241	41	0	9.044	6
44.165	2.90898	-0.00842387	41	0	9.069	6
44.19	2.90894	-0.00842433	41	0	9.094	6
44.215	2.90894	-0.00842402	41	0	9.119	6
44.24	2.90893	-0.00842505	41	0	9.144	6
44.265	2.90894	-0.00842479	41	0	9.169	6
44.29	2.90893	-0.00842509	41	0	9.194	6
44.315	2.9089	-0.00842536	41	0	9.219	6
44.34	2.90894	-0.00842555	41	0	9.244	6
44.365	2.9089	-0.0084249	41	0	9.269	6
44.39	2.90889	-0.00842471	41	0	9.294	6
44.415	2.90892	-0.00842463	41	0	9.319	6
44.44	2.90886	-0.00842502	41	0	9.344	6
44.465	2.90887	-0.00842444	41	0	9.369	6
44.49	2.90882	-0.00842498	41	0	9.394	6
44.515	2.90883	-0.00842544	41	0	9.419	6
44.54	2.90884	-0.00842528	41	0	9.444	6
44.565	2.90886	-0.00842479	41	0	9.469	6
44.59	2.90881	-0.00842505	41	0	9.494	6
44.615	2.90883	-0.00842467	41	0	9.519	6
44.64	2.90881	-0.00842479	41	0	9.544	6
44.665	2.90884	-0.00842559	41	0	9.569	6
44.69	2.90877	-0.00842609	41	0	9.594	6
44.715	2.90878	-0.0084246	41	0	9.619	6
44.74	2.90879	-0.00842483	41	0	9.644	6
44.765	2.90878	-0.00842597	41	0	9.669	6
44.79	2.90879	-0.0084262	41	0	9.694	6
44.815	2.90875	-0.00842574	41	0	9.719	6
44.84	2.90878	-0.00842452	41	0	9.744	6
44.865	2.90872	-0.00842494	41	0	9.769	6
44.89	2.90877	-0.00842567	41	0	9.794	6
44.915	2.90877	-0.00842631	41	0	9.819	6
44.94	2.90872	-0.00842525	41	0	9.844	6
44.965	2.90876	-0.00842555	41	0	9.869	6
44.99	2.90869	-0.00842563	41	0	9.894	6
45.015	2.90872	-0.00842536	41	0	9.919	6
45.04	2.90871	-0.00842536	41	0	9.944	6
45.065	2.9087	-0.00842528	41	0	9.969	6
45.09	2.9087	-0.00842444	41	0	9.994	6
45.1142	2.9153	-1.67706e-05	41	0	10.0182	7
45.1392	2.91677	-1.61215e-05	41	0	10.0432	7
45.1642	2.91752	-1.62743e-05	41	0	10.0682	7
45.1892	2.91808	-1.57398e-05	41	0	10.0932	7
45.2142	2.91844	-1.60227e-05	41	0	10.1182	7
45.2392	2.91877	-1.73055e-05	41	0	10.1432	7
45.2642	2.91901	-1.6458e-05	41	0	10.1682	7
45.2892	2.91923	-1.7317e-05	41	0	10.1932	7
45.3142	2.91937	-1.72177e-05	41	0	10.2182	7
45.3392	2.91958	-1.6729e-05	41	0	10.2432	7
45.3642	2.91967	-1.6416e-05	41	0	10.2682	7
45.3892	2.91981	-1.72253e-05	41	0	10.2932	7
45.4142	2.91992	-1.70574e-05	41	0	10.3182	7
45.4392	2.92004	-1.62365e-05	41	0	10.3432	7
45.4642	2.92014	-1.64732e-05	41	0	10.3682	7
45.4892	2.9202	-1.629e-05	41	0	10.3932	7
45.5142	2.92031	-1.75231e-05	41	0	10.4182	7
45.5392	2.92037	-1.56409e-05	41	0	10.4432	7
45.5642	2.92045	-1.59502e-05	41	0	10.4682	7
45.5892	2.92046	-1.6248e-05	41	0	10.4932	7
45.6142	2.92056	-1.61983e-05	41	0	10.5182	7
45.6392	2.92061	-1.66641e-05	41	0	10.5432	7
45.6642	2.92067	-1.65496e-05	41	0	10.5682	7
45.6892	2.92072	-1.50721e-05	41	0	10.5932	7
45.7142	2.92077	-1.55989e-05	41	0	10.6182	7
45.7392	2.92077	-1.69008e-05	41	0	10.6432	7
45.7642	2.92089	-1.63587e-05	41	0	10.6682	7
45.7892	2.92097	-1.62938e-05	41	0	10.6932	7
45.8142	2.92095	-1.59769e-05	41	0	10.7182	7
45.8392	2.92099	-1.61182e-05	41	0	10.7432	7
45.8642	2.92107	-1.61067e-05	41	0	10.7682	7
45.8892	2.92111	-1.55035e-05	41	0	10.7932	7
45.9142	2.92115	-1.65534e-05	41	0	10.8182	7
45.9392	2.92117	-1.66145e-05	41	0	10.8432	7
45.9642	2.92121	-1.69848e-05	41	0	10.8682	7
45.9892	2.92123	-1.59502e-05	41	0	10.8932	7
46.0142	2.92127	-1.48621e-05	41	0	10.9182	7
46.0392	2.92125	-1.59502e-05	41	0	10.9432	7
46.0642	2.92131	-1.67481e-05	41	0	10.9682	7
46.0892	2.92131	-1.6038e-05	41	0	10.9932	7
46.1142	2.92138	-1.55875e-05	41	0	11.0182	7
46.1392	2.92137	-1.58356e-05	41	0	11.0432	7
46.1642	2.9214	-1.61754e-05	41	0	11.0682	7
46.1892	2.92142	-1.6038e-05	41	0	11.0932	7
46.2142	2.92146	-1.63472e-05	41	0	11.1182	7
46.2392	2.92148	-1.61793e-05	41	0	11.1432	7
46.2642	2.92152	-1.6374e-05	41	0	11.1682	7
46.2892	2.92156	-1.64312e-05	41	0	11.1932	7
46.3142	2.92157	-1.67672e-05	41	0	11.2182	7
46.3392	2.92158	-1.67977e-05	41	0	11.2432	7
46.3642	2.9216	-1.6458e-05	41	0	11.2682	7
46.3892	2.92165	-1.69046e-05	41	0	11.2932	7
46.4142	2.92167	-1.62251e-05	41	0	11.3182	7
46.4392	2.92165	-1.67443e-05	41	0	11.3432	7
46.4642	2.9217	-1.62289e-05	41	0	11.3682	7
46.4892	2.92171	-1.66107e-05	41	0	11.3932	7
46.5142	2.92172	-1.52935e-05	41	0	11.4182	7
46.5392	2.92176	-1.64198e-05	41	0	11.4432	7
46.5642	2.92178	-1.63396e-05	41	0	11.4682	7
46.5892	2.92181	-1.65763e-05	41	0	11.4932	7
46.6142	2.92181	-1.66183e-05	41	0	11.5182	7
46.6392	2.92184	-1.66985e-05	41	0	11.5432	7
46.6642	2.92186	-1.62594e-05	41	0	11.5682	7
46.6892	2.9219	-1.61182e-05	41	0	11.5932	7
46.7142	2.92187	-1.57631e-05	41	0	11.6182	7
46.7392	2.92193	-1.62098e-05	41	0	11.6432	7
46.7642	2.92187	-1.6332e-05	41	0	11.6682	7
46.7892	2.92187	-1.65458e-05	41	0	11.6932	7
46.8142	2.92193	-1.56638e-05	41	0	11.7182	7
46.8392	2.922	-1.60189e-05	41	0	11.7432	7
46.8642	2.92194	-1.56371e-05	41	0	11.7682	7
46.8892	2.92195	-1.56868e-05	41	0	11.7932	7
46.9142	2.92196	-1.67481e-05	41	0	11.8182	7
46.9392	2.922	-1.64236e-05	41	0	11.8432	7
46.9642	2.92202	-1.61754e-05	41	0	11.8682	7
46.9892	2.92202	-1.6206e-05	41	0	11.8932	7
47.0142	2.92205	-1.55455e-05	41	0	11.9182	7
47.0392	2.92206	-1.65572e-05	41	0	11.9432	7
47.0642	2.92206	-1.56295e-05	41	0	11.9682	7
47.0892	2.92209	-1.63587e-05	41	0	11.9932	7
47.1142	2.92208	-1.63129e-05	41	0	12.0182	7
47.1392	2.92209	-1.52439e-05	41	0	12.0432	7
47.1642	2.92209	-1.67214e-05	41	0	12.0682	7
47.1892	2.92211	-1.59693e-05	41	0	12.0932	7
47.2142	2.92218	-1.63969e-05	41	0	12.1182	7
47.2392	2.92217	-1.68359e-05	41	0	12.1432	7
47.2642	2.92216	-1.51675e-05	41	0	12.1682	7
47.2892	2.92214	-1.52401e-05	41	0	12.1932	7
47.3142	2.92218	-1.61907e-05	41	0	12.2182	7
47.3392	2.92221	-1.58013e-05	41	0	12.2432	7
47.3642	2.92218	-1.64121e-05	41	0	12.2682	7
47.3892	2.92219	-1.59464e-05	41	0	12.2932	7
47.4142	2.92227	-1.66221e-05	41	0	12.3182	7
47.4392	2.92224	-1.71452e-05	41	0	12.3432	7
47.4642	2.92222	-1.67481e-05	41	0	12.3682	7
47.4892	2.92227	-1.5053e-05	41	0	12.3932	7
47.5142	2.92226	-1.53164e-05	41	0	12.4182	7
47.5392	2.92225	-1.61296e-05	41	0	12.4432	7
47.5642	2.92233	-1.65038e-05	41	0	12.4682	7
47.5892	2.92231	-1.60838e-05	41	0	12.4932	7
47.6142	2.92232	-1.60991e-05	41	0	12.5182	7
47.6392	2.92233	-1.60113e-05	41	0	12.5432	7
47.6642	2.92234	-1.46788e-05	41	0	12.5682	7
47.6892	2.92235	-1.6122e-05	41	0	12.5932	7
47.7142	2.92235	-1.63281e-05	41	0	12.6182	7
47.7392	2.92237	-1.64809e-05	41	0	12.6432	7
47.7642	2.92234	-1.66756e-05	41	0	12.6682	7
47.7892	2.92239	-1.60418e-05	41	0	12.6932	7
47.8142	2.92238	-1.6374e-05	41	0	12.7182	7
47.8392	2.92244	-1.66527e-05	41	0	12.7432	7
47.8642	2.92244	-1.56524e-05	41	0	12.7682	7
47.8892	2.92243	-1.65076e-05	41	0	12.7932	7
47.9142	2.92248	-1.67367e-05	41	0	12.8182	7
47.9392	2.92245	-1.67099e-05	41	0	12.8432	7
47.9642	2.92243	-1.63396e-05	41	0	12.8682	7
47.9892	2.92244	-1.61525e-05	41	0	12.8932	7
48.0142	2.92244	-1.66565e-05	41	0	12.9182	7
48.0392	2.9224	-1.61945e-05	41	0	12.9432	7
48.0642	2.92244	-1.68665e-05	41	0	12.9682	7
48.0892	2.92247	-1.63892e-05	41	0	12.9932	7
48.1142	2.92249	-1.65496e-05	41	0	13.0182	7
48.1392	2.92247	-1.66374e-05	41	0	13.0432	7
48.1642	2.92254	-1.60571e-05	41	0	13.0682	7
48.1892	2.9225	-1.66259e-05	41	0	13.0932	7
48.2142	2.9225	-1.4969e-05	41	0	13.1182	7
48.2392	2.92251	-1.53508e-05	41	0	13.1432	7
48.2642	2.92259	-1.64312e-05	41	0	13.1682	7
48.2892	2.92253	-1.49652e-05	41	0	13.1932	7
48.3142	2.9225	-1.66374e-05	41	0	13.2182	7
48.3392	2.92254	-1.73093e-05	41	0	13.2432	7
48.3642	2.92259	-1.62976e-05	41	0	13.2682	7
48.3892	2.92254	-1.68283e-05	41	0	13.2932	7
48.4142	2.92256	-1.62136e-05	41	0	13.3182	7
48.4392	2.92257	-1.62442e-05	41	0	13.3432	7
48.4642	2.92258	-1.54806e-05	41	0	13.3682	7
48.4892	2.92259	-1.57707e-05	41	0	13.3932	7
48.5142	2.9226	-1.6561e-05	41	0	13.4182	7
48.5392	2.92259	-1.60724e-05	41	0	13.4432	7
48.5642	2.92257	-1.59616e-05	41	0	13.4682	7
48.5892	2.92263	-1.68168e-05	41	0	13.4932	7
48.6142	2.92265	-1.72482e-05	41	0	13.5182	7
48.6392	2.92266	-1.60685e-05	41	0	13.5432	7
48.6642	2.92263	-1.59578e-05	41	0	13.5682	7
48.6892	2.92261	-1.65229e-05	41	0	13.5932	7
48.7142	2.92262	-1.64045e-05	41	0	13.6182	7
48.7392	2.92264	-1.55264e-05	41	0	13.6432	7
48.7642	2.92268	-1.6813e-05	41	0	13.6682	7
48.7892	2.92266	-1.56753e-05	41	0	13.6932	7
48.8142	2.92264	-1.71872e-05	41	0	13.7182	7
48.8392	2.92266	-1.67252e-05	41	0	13.7432	7
48.8642	2.92264	-1.6164e-05	41	0	13.7682	7
48.8892	2.92272	-1.74582e-05	41	0	13.7932	7
48.9142	2.9227	-1.71184e-05	41	0	13.8182	7
48.9392	2.92271	-1.7317e-05	41	0	13.8432	7
48.9642	2.92272	-1.61831e-05	41	0	13.8682	7
48.9892	2.92274	-1.77255e-05	41	0	13.8932	7
49.0142	2.92272	-1.82485e-05	41	0	13.9182	7
49.0392	2.92269	-1.6645e-05	41	0	13.9432	7
49.0642	2.92271	-1.63969e-05	41	0	13.9682	7
49.0892	2.92271	-1.69505e-05	41	0	13.9932	7
49.1142	2.9227	-1.60533e-05	41	0	14.0182	7
49.1392	2.92269	-1.64083e-05	41	0	14.0432	7
49.1642	2.92274	-1.61563e-05	41	0	14.0682	7
49.1892	2.92274	-1.68168e-05	41	0	14.0932	7
49.2142	2.92272	-1.6122e-05	41	0	14.1182	7
49.2392	2.92279	-1.72024e-05	41	0	14.1432	7
49.2642	2.92272	-1.63243e-05	41	0	14.1682	7
49.2892	2.92275	-1.57249e-05	41	0	14.1932	7
49.3142	2.92276	-1.66794e-05	41	0	14.2182	7
49.3392	2.92279	-1.49843e-05	41	0	14.2432	7
49.3642	2.92279	-1.69008e-05	41	0	14.2682	7
49.3892	2.92277	-1.56219e-05	41	0	14.2932	7
49.4142	2.92277	-1.50072e-05	41	0	14.3182	7
49.4392	2.9228	-1.62022e-05	41	0	14.3432	7
49.4642	2.92282	-1.54271e-05	41	0	14.3682	7
49.4892	2.92275	-1.65229e-05	41	0	14.3932	7
49.5142	2.92278	-1.6477e-05	41	0	14.4182	7
49.5392	2.92279	-1.5996e-05	41	0	14.4432	7
49.5642	2.92282	-1.59349e-05	41	0	14.4682	7
49.5892	2.92284	-1.73628e-05	41	0	14.4932	7
49.6142	2.9228	-1.69886e-05	41	0	14.5182	7
49.6392	2.92286	-1.64198e-05	41	0	14.5432	7
49.6642	2.92287	-1.68245e-05	41	0	14.5682	7
49.6892	2.92282	-1.6897e-05	41	0	14.5932	7
49.7142	2.92293	-1.52706e-05	41	0	14.6182	7
49.7392	2.92285	-1.67252e-05	41	0	14.6432	7
49.7642	2.92287	-1.67023e-05	41	0	14.6682	7
49.7892	2.92287	-1.72712e-05	41	0	14.6932	7
49.8142	2.92283	-1.63549e-05	41	0	14.7182	7
49.8392	2.92283	-1.51752e-05	41	0	14.7432	7
49.8642	2.92286	-1.68054e-05	41	0	14.7682	7
49.8892	2.92289	-1.68397e-05	41	0	14.7932	7
49.9142	2.9228	-1.69695e-05	41	0	14.8182	7
49.9392	2.92293	-1.68588e-05	41	0	14.8432	7
49.9642	2.92287	-1.79316e-05	41	0	14.8682	7
49.9892	2.9229	-1.73781e-05	41	0	14.8932	7
50.0142	2.92287	-1.67023e-05	41	0	14.9182	7
50.0392	2.92288	-1.6458e-05	41	0	14.9432	7
50.0642	2.92292	-1.67825e-05	41	0	14.9682	7
50.0892	2.92287	-1.65649e-05	41	0	14.9932	7
50.096	2.92289	-1.60914e-05	41	0	15	7